Folder: Plot_battery_cell_lab_3

Note: README.md
# Plot_battery_cell_lab_3
A Script

File: Cell 2.CSV
Data Point,Date Time,Test Time (s),Step Time (s),Cycle Index,Step Index,Current (A),Voltage (V),Power (W),Charge Capacity (Ah),Discharge Capacity (Ah),Charge Energy (Wh),Discharge Energy (Wh),ACR (Ohm),dV/dt (V/s),Internal Resistance (Ohm),dQ/dV (Ah/V),dV/dQ (V/Ah)
1,	09/22/2022 15:27:13.774,60.0001,60.0001,1,1,0,0.131228,0,0,0,0,0,,-4.81065e-06,,,
297,	09/22/2022 19:21:13.855,14100.1,6900,1,3,0,1.22396,0,0.0002680493,0,0.000380497,0,,-2.33519e-05,,0,
593,	09/23/2022 00:17:13.856,31860.1,24660,1,3,0,1.052173,0,0.0002680493,0,0.000380497,0,,-1.54099e-06,,0,
889,	09/23/2022 05:13:13.855,49620.1,42420,1,3,0,0.9529014,0,0.0002680493,0,0.000380497,0,,-4.85044e-06,,0,
1185,	09/23/2022 07:46:32.473,58818.7,3300,1,8,0.04000437,3.296086,0.131858,0.07381946,0,0.2309162,0,,4.36613e-05,,,
1481,	09/23/2022 10:14:32.473,67698.7,12180,1,8,0.0400039,3.393547,0.135755,0.1724767,0,0.561767,0,,3.23213e-05,,0,
1777,	09/23/2022 12:41:54.320,76540.5,3660,1,10,-0.03998768,3.269573,-0.130743,0.2300464,0.04065023,0.7606235,0.1338582,,-6.75703e-06,,,
2073,	09/23/2022 15:09:13.114,85379.3,1680,1,7,0,3.252396,0,0,0.00000005552123,0.7606235,0.3916223,,-8.37673e-06,,,
2369,	09/23/2022 17:36:43.153,94229.4,8730,1,8,0.03996813,3.387991,0.135412,0.09690858,0.00000005552123,1.085526,0.3916223,,-7.86293e-06,,,0
2665,	09/23/2022 20:04:12.396,103079,6420,1,10,-0.04000336,3.249648,-0.129997,0.1238732,0.07133351,1.178089,0.6253352,,-2.09418e-06,,2.71377,0
2961,	09/23/2022 22:30:50.336,111877,2820,1,8,0.03998828,3.344109,0.133725,0.03131721,0.0000000544593,1.282368,0.7753067,,1.4027e-05,,,
3257,	09/24/2022 00:58:00.965,120707,780.0001,1,10,-0.04000789,3.29386,-0.13178,0.1207214,0.00866673,1.584745,0.8040332,,1.53695e-05,,,
3553,	09/24/2022 03:26:00.966,129587,9660.001,1,10,-0.04000634,3.215445,-0.128638,0.1207214,0.107333,1.584745,1.125429,,-1.00363e-05,,,
3849,	09/24/2022 05:52:34.376,138381,6180,1,8,0.03998375,3.373211,0.134874,0.06863133,0.00000005889062,1.814204,1.154423,,4.37433e-05,,,
4145,	09/24/2022 08:19:58.267,147224,4380.001,1,10,-0.0400086,3.257701,-0.130336,0.1182034,0.04866572,1.982929,1.314285,,1.04708e-05,,0,
4441,	09/24/2022 10:47:02.784,156049,1050,1,8,0.03998643,3.332396,0.133251,0.01166101,0.00000002333654,2.021591,1.529189,,7.90198e-08,,,0
4737,	09/24/2022 13:15:02.785,164929,9930,1,8,0.03998059,3.429163,0.1371,0.1102752,0.00000002333654,2.353646,1.529189,,0.000107608,,0.143344,
5033,	09/24/2022 15:42:15.435,173761.661,8280,1,10,-0.04001939,3.231765,-0.129333,0.1164112,0.09202901,2.375076,1.829819,,-2.50116e-05,,,
5329,	09/24/2022 18:09:09.225,182575,5040,1,8,0.03998274,3.357136,0.134227,0.05596953,0.00000006447131,2.56199,1.900399,,2.05056e-05,,0,
5625,	09/24/2022 20:36:19.649,191406,3510,1,11,0,3.350736,0,0.1150531,0.00000006447131,2.762647,1.900399,,-5.61115e-06,,,
5921,	09/24/2022 23:03:49.691,200256,1560.001,1,12,-0.04000664,3.28473,-0.131411,0.1150531,0.01733282,2.762647,1.957421,,-2.39049e-05,,,
6217,	09/25/2022 01:31:49.691,209136,10440.001,1,12,-0.04000431,3.189112,-0.127578,0.1150531,0.1159994,2.762647,2.277466,,6.28291e-06,,0.508955,0
6513,	09/25/2022 04:53:02.081,221208,4140,1,17,0.1000122,3.430311,0.343073,0.1149979,0.0000000000105732,3.149346,2.424304,,4.1807e-05,,,
6809,	09/25/2022 07:20:58.612,230085,4020,1,19,-0.1000138,3.172575,-0.317301,0.1764857,0.1116679,3.367345,2.783803,,-4.77339e-05,,,
7105,	09/25/2022 09:47:12.710,238859,5910,2,17,0.1000152,3.529765,0.35303,0.1641611,0,0.5544923,0,,0.000263627,,0.107786,8.81183
7401,	09/25/2022 12:13:04.217,247610,330.001,3,17,0.1000175,3.254276,0.325485,0.009166265,0.000000000003771648,0.02882059,0.00000000001091782,,0.000386701,,0.0611703,17.2331
7697,	09/25/2022 14:40:28.827,256455.053,1890,3,19,-0.1000119,3.221194,-0.322158,0.1757416,0.05249913,0.5956168,0.1702883,,-3.29537e-05,,0,
7993,	09/25/2022 17:06:33.921,265220,3750,4,17,0.1000192,3.404929,0.340558,0.104167,0.000000000001519918,0.3479201,0.000000000004388809,,3.01876e-05,,,0
8289,	09/25/2022 19:33:43.199,274049,5370,4,19,-0.1000298,3.097393,-0.309832,0.1757764,0.1491904,0.5955662,0.4775898,,-0.000125494,,0.240821,
8585,	09/25/2022 21:58:52.787,282759,10.0008,5,25,-0.01000183,3.442844,-0.0344347,0.1756833,0.00002777052,0.5951962,0.00009571222,,-0.000786255,,0.00265431,737.717
8881,	09/25/2022 22:48:12.787,285719,2970,5,25,-0.01000034,3.315018,-0.0331513,0.1756833,0.008249114,0.5951962,0.0274864,,1.03524e-05,,,
9177,	09/25/2022 23:37:32.787,288679.013,5930,5,25,-0.01000042,3.313034,-0.0331317,0.1756833,0.01647042,0.5951962,0.05473338,,-1.06295e-05,,,
9473,	09/26/2022 00:26:52.786,291639,8890,5,25,-0.0100005,3.310781,-0.0331095,0.1756833,0.02469162,0.5951962,0.08196151,,-1.6715e-05,,0,
9769,	09/26/2022 01:16:12.787,294599,11850,5,25,-0.01000045,3.306786,-0.0330693,0.1756833,0.03291289,0.5951962,0.109166,,-1.24464e-05,,,
10065,	09/26/2022 02:05:32.786,297559,14810,5,25,-0.01000055,3.293516,-0.032937,0.1756833,0.04113419,0.5951962,0.1363079,,,,0,
10361,	09/26/2022 02:54:52.787,300519,17770.001,5,25,-0.01000079,3.280422,-0.0328068,0.1756833,0.04935554,0.5951962,0.1633176,,-1.23287e-05,,,
10657,	09/26/2022 03:44:12.787,303479,20730,5,25,-0.01000049,3.277541,-0.032777,0.1756833,0.05757689,0.5951962,0.1902737,,-1.1142e-05,,,
10953,	09/26/2022 04:33:32.787,306439,23690.001,5,25,-0.01000047,3.275972,-0.0327613,0.1756833,0.06579825,0.5951962,0.2172132,,-1.9913e-05,,,
11249,	09/26/2022 05:22:52.787,309399,26650,5,25,-0.0100005,3.274806,-0.0327497,0.1756833,0.0740196,0.5951962,0.2441413,,,,,
11545,	09/26/2022 06:12:12.786,312359,29610,5,25,-0.01000061,3.27338,-0.0327358,0.1756833,0.08224093,0.5951962,0.2710583,,2.48139e-05,,,
11841,	09/26/2022 07:01:32.787,315319,32570,5,25,-0.01000056,3.271196,-0.0327138,0.1756833,0.09046228,0.5951962,0.297961,,3.47707e-06,,,
12137,	09/26/2022 07:50:52.787,318279.013,35530,5,25,-0.01000036,3.266078,-0.032662,0.1756833,0.09868357,0.5951962,0.3248363,,,,0,
12433,	09/26/2022 08:40:12.787,321239,38490,5,25,-0.01000041,3.257835,-0.0325797,0.1756833,0.1069049,0.5951962,0.351656,,-8.85022e-06,,,
12729,	09/26/2022 09:29:32.786,324199,41450,5,25,-0.01000041,3.246192,-0.0324633,0.1756833,0.1151262,0.5951962,0.3783932,,-3.16119e-07,,,
13025,	09/26/2022 10:18:52.786,327159,44410,5,25,-0.01000038,3.235017,-0.0323514,0.1756833,0.1233476,0.5951962,0.4050329,,6.48e-06,,,
13321,	09/26/2022 11:08:12.787,330119,47370,5,25,-0.01000046,3.221191,-0.0322134,0.1756833,0.131569,0.5951962,0.4315785,,,,,0
13617,	09/26/2022 11:57:32.786,333079,50330,5,25,-0.01000059,3.203354,-0.0320354,0.1756833,0.1397903,0.5951962,0.4579865,,8.41561e-06,,,
13913,	09/26/2022 12:46:52.786,336039,53290,5,25,-0.0100006,3.184719,-0.0318491,0.1756833,0.1480117,0.5951962,0.4842319,,3.43782e-06,,,
14209,	09/26/2022 13:36:12.786,338999,56250,5,25,-0.01000057,3.177324,-0.0317751,0.1756833,0.1562331,0.5951962,0.5103894,,6.40145e-06,,,
14505,	09/26/2022 14:25:32.787,341959,59210,5,25,-0.0100005,3.117421,-0.0311758,0.1756833,0.1644544,0.5951962,0.5363495,,-2.84888e-05,,,
14801,	09/26/2022 15:14:52.786,344919,62170,5,25,-0.01000049,2.956914,-0.0295706,0.1756833,0.1726758,0.5951962,0.5613918,,-9.07342e-05,,,0
15097,	09/26/2022 16:09:10.692,348177,450.0008,5,26,0,2.618583,0,0.1756833,0.1804746,0.5951962,0.5831687,,0.000123947,,0,
15393,	09/26/2022 17:00:00.733,351227,2900,5,27,0.01000043,3.096426,0.0309656,0.1837379,0.1804746,0.618934,0.5831687,,,,,
15689,	09/26/2022 17:49:20.734,354187,5860,5,27,0.0100004,3.228353,0.0322848,0.1919593,0.1804746,0.6450099,0.5831687,,3.59169e-05,,,
15985,	09/26/2022 18:38:40.734,357147,8820,5,27,0.01000043,3.24168,0.0324182,0.2001806,0.1804746,0.6716236,0.5831687,,-4.74186e-07,,,
16281,	09/26/2022 19:28:00.734,360107,11780,5,27,0.01000036,3.256064,0.0325618,0.208402,0.1804746,0.6983249,0.5831687,,1.24463e-05,,,
16577,	09/26/2022 20:17:20.733,363067,14740,5,27,0.01000069,3.278082,0.0327831,0.2166233,0.1804746,0.7251843,0.5831687,,-1.22497e-05,,,
16873,	09/26/2022 21:06:40.734,366027,17700,5,27,0.01000037,3.294909,0.0329503,0.2248446,0.1804746,0.7522095,0.5831687,,-1.29997e-05,,,
17169,	09/26/2022 21:56:00.734,368987,20660,5,27,0.01000045,3.310004,0.0331015,0.2330658,0.1804746,0.7793606,0.5831687,,-3.04244e-06,,,
17465,	09/26/2022 22:45:20.733,371947,23620,5,27,0.01000028,3.318366,0.0331846,0.241287,0.1804746,0.8066099,0.5831687,,,,,0
17761,	09/26/2022 23:34:40.734,374907,26580.001,5,27,0.01000044,3.32257,0.0332272,0.2495082,0.1804746,0.8339123,0.5831687,,2.42198e-05,,0,
18057,	09/27/2022 00:24:00.733,377867,29540,5,27,0.0100004,3.324336,0.0332447,0.2577295,0.1804746,0.8612354,0.5831687,,-5.966e-06,,,
18353,	09/27/2022 01:13:20.733,380827,32500,5,27,0.01000049,3.325724,0.0332589,0.2659507,0.1804746,0.8885709,0.5831687,,-1.71889e-05,,,
18649,	09/27/2022 02:02:40.733,383787,35460,5,27,0.01000033,3.32738,0.0332749,0.274172,0.1804746,0.9159197,0.5831687,,,,,
18945,	09/27/2022 02:52:00.733,386747,38420,5,27,0.01000044,3.329457,0.033296,0.2823932,0.1804746,0.9432836,0.5831687,,-1.0787e-05,,,
19241,	09/27/2022 03:41:20.733,389707,41380,5,27,0.01000044,3.332427,0.0333257,0.2906144,0.1804746,0.9706672,0.5831687,,-7.15218e-06,,0,
19537,	09/27/2022 04:30:40.733,392667,44340,5,27,0.01000038,3.336592,0.0333672,0.2988356,0.1804746,0.9980788,0.5831687,,-1.2052e-05,,,
19833,	09/27/2022 05:20:00.733,395627,47300,5,27,0.01000046,3.344129,0.0334428,0.3070569,0.1804746,1.025537,0.5831687,,2.17333e-05,,,
20129,	09/27/2022 06:09:20.734,398587,50260,5,27,0.01000037,3.358869,0.0335899,0.3152781,0.1804746,1.053087,0.5831687,,2.3472e-05,,,
20425,	09/27/2022 06:58:40.734,401547,53220,5,27,0.01000033,3.364072,0.0336418,0.3234993,0.1804746,1.080733,0.5831687,,-5.96639e-06,,0,
20721,	09/27/2022 07:48:00.733,404507,56180,5,27,0.01000045,3.365848,0.03366,0.3317205,0.1804746,1.108396,0.5831687,,,,,0
21017,	09/27/2022 08:37:20.734,407467,59140.001,5,27,0.01000036,3.368046,0.0336817,0.3399417,0.1804746,1.136076,0.5831687,,-5.21526e-06,,,
21313,	09/27/2022 09:26:40.734,410427,62100,5,27,0.01000037,3.372333,0.0337246,0.3481629,0.1804746,1.16378,0.5831687,,1.10635e-05,,,
21609,	09/27/2022 10:16:00.733,413387,65060,5,27,0.01000042,3.415896,0.0341604,0.3563842,0.1804746,1.191588,0.5831687,,,,,
21905,	09/27/2022 12:16:50.572,420637,2910,6,31,0,3.128088,0,0,0.1652677,0,0.5092722,,-2.37075e-06,,,
21928,	09/27/2022 12:28:20.571,421327,3600,6,31,0,3.136792,0,0,0.1652677,0,0.5092722,,3.44157e-05,0.399046,0,0

File: Cell 3.CSV
Data Point,Date Time,Test Time (s),Step Time (s),Cycle Index,Step Index,Current (A),Voltage (V),Power (W),Charge Capacity (Ah),Discharge Capacity (Ah),Charge Energy (Wh),Discharge Energy (Wh),ACR (Ohm),dV/dt (V/s),Internal Resistance (Ohm),dQ/dV (Ah/V),dV/dQ (V/Ah)
1,	09/22/2022 15:27:13.789,60.0009,60.0009,1,1,0,0.07473326,0,0,0,0,0,,4.54884e-06,,,
330,	09/22/2022 19:54:13.872,16080.084,8880,1,3,0,1.112215,0,0.0002055597,0,0.0002921992,0,,-2.68488e-05,,0,
659,	09/23/2022 01:23:13.873,35820.1,28620.001,1,3,0,0.8416467,0,0.0002055597,0,0.0002921992,0,,-6.93399e-06,,0,
988,	09/23/2022 06:08:45.197,52951.4,2550,1,5,0.04001874,3.494195,0.139833,0.02854703,0,0.09265844,0,,7.954e-05,,0.128512,
1317,	09/23/2022 08:52:43.215,62789.4,4740.001,1,8,0.03998333,3.68673,0.147408,0.1178375,0,0.4146139,0,,4.00235e-05,,0,0
1646,	09/23/2022 11:37:13.214,72659.4,14610,1,8,0.03998029,4.040842,0.161554,0.2274376,0,0.8351131,0,,5.53175e-05,,,
1975,	09/23/2022 14:19:30.967,82397.2,1140,1,8,0.03998196,4.002626,0.160033,0.01265879,0.00000002221945,1.01752,0.1743134,,4.30719e-05,,,4.97924
2304,	09/23/2022 17:01:57.377,92143.6,510.0015,1,8,0.04000193,3.967685,0.158715,0.005665584,0.00000002222835,1.186758,0.3623974,,6.47605e-05,,,
2633,	09/23/2022 19:44:55.857,101922,1620.001,1,7,0,3.921058,0,0,0.00000002111681,1.361607,0.5546534,,1.23278e-05,,,
2962,	09/23/2022 22:27:27.682,111674,840.0008,1,7,0,3.919956,0,0,0.0000000589116,1.559913,0.7487339,,2.13368e-05,,,
3291,	09/24/2022 01:10:00.413,121427,30.001,1,7,0,3.913843,0,0,0.00000005890608,1.758749,0.9436964,,0.000125595,,,
3620,	09/24/2022 03:53:30.480,131237,3630,1,11,0,4.173246,0,0.04899294,0.00000005890608,1.957844,0.9436964,,1.1695e-05,,,
3949,	09/24/2022 06:37:30.519,141077,2670,1,12,-0.04001272,3.98851,-0.159591,0.04899294,0.02967052,1.957844,1.064383,,-4.20805e-05,,0.196151,
4278,	09/24/2022 09:22:00.520,150947,12540,1,12,-0.04001266,3.610774,-0.144477,0.04899294,0.1393477,1.957844,1.477107,,-5.29459e-06,,,0
4607,	09/24/2022 12:59:49.766,164016,1770.001,1,17,0.09999084,3.630733,0.36304,0.04915517,0,2.132231,1.775425,,5.44918e-05,,0.385375,
4936,	09/24/2022 15:43:48.422,173855,2160.001,1,19,-0.1000062,3.833791,-0.383403,0.228093,0.0599906,2.823481,2.014489,,-0.000108532,,0.216872,
5265,	09/24/2022 18:26:43.808,183630,3330,2,17,0.09999347,3.709427,0.370918,0.09248033,0.00000000001218418,0.3342226,0.00000000004078117,,3.81691e-05,,0,
5594,	09/24/2022 21:10:42.664,193469,3930,2,19,-0.1000053,3.653266,-0.365346,0.22297,0.1091551,0.847331,0.4227757,,-8.7967e-05,,0,
5923,	09/24/2022 23:53:35.670,203242,5100,3,17,0.09999317,3.846816,0.384655,0.141637,0.00000000002496772,0.5194578,0.00000000008346795,,8.26657e-05,,0.28198,
6252,	09/25/2022 02:37:09.160,213055,5700,3,19,-0.1000056,3.555762,-0.355596,0.2228186,0.1583153,0.8465203,0.6000109,,-4.29106e-05,,,
6581,	09/25/2022 05:20:02.085,222828.297,6870,4,17,0.09999299,4.065771,0.406549,0.1907901,0,0.713373,0,,0.000169475,,0.195192,
6910,	09/25/2022 08:03:41.830,232648,7500,4,19,-0.09998822,3.389755,-0.338936,0.2227512,0.2082817,0.8459288,0.7746255,,-0.000238401,,0.143999,
7239,	09/25/2022 10:46:22.906,242409,90.001,5,24,0,4.195394,0,0.2227205,0.00000000001151363,0.8453962,0.00000000003839208,,-3.95148e-07,,0,
7568,	09/25/2022 11:46:42.949,246029,3110,5,25,-0.01000144,4.130453,-0.0413105,0.2227205,0.008638556,0.8453962,0.03591455,,-2.67125e-05,,,
7897,	09/25/2022 12:41:32.949,249319,6400.001,5,25,-0.01000136,4.079126,-0.0407968,0.2227205,0.01777723,0.8453962,0.07342457,,-6.71724e-06,,0,
8226,	09/25/2022 13:36:22.949,252609,9690,5,25,-0.01000141,4.030736,-0.040313,0.2227205,0.02691587,0.8453962,0.1104802,,-2.69475e-05,,,
8555,	09/25/2022 14:31:12.948,255899.16,12980,5,25,-0.01000136,3.984478,-0.0398502,0.2227205,0.03605423,0.8453962,0.1471017,,-6.55897e-06,,,
8884,	09/25/2022 15:26:02.948,259189.16,16270,5,25,-0.01000141,3.939764,-0.0394032,0.2227205,0.04519221,0.8453962,0.1833058,,,,,
9213,	09/25/2022 16:20:52.948,262479,19560,5,25,-0.01000139,3.896953,-0.0389749,0.2227205,0.05433096,0.8453962,0.2191136,,-2.78171e-05,,,
9542,	09/25/2022 17:15:42.949,265769,22850.001,5,25,-0.01000133,3.856229,-0.0385674,0.2227205,0.06346959,0.8453962,0.2545396,,7.15135e-06,,,
9871,	09/25/2022 18:10:32.948,269059,26140,5,25,-0.01000134,3.818,-0.0381851,0.2227205,0.07260814,0.8453962,0.2896037,,-1.50136e-05,,,
10200,	09/25/2022 19:05:22.948,272349,29430,5,25,-0.01000132,3.781233,-0.0378173,0.2227205,0.08174608,0.8453962,0.3243232,,-7.03323e-06,,,
10529,	09/25/2022 20:00:12.948,275639,32720,5,25,-0.01000139,3.744279,-0.037448,0.2227205,0.0908845,0.8453962,0.35871,,8.6143e-06,,,
10858,	09/25/2022 20:55:02.948,278929,36010,5,25,-0.01000127,3.710983,-0.0371145,0.2227205,0.1000231,0.8453962,0.3927692,,-2.54465e-05,,,
11187,	09/25/2022 21:49:52.949,282219,39300.001,5,25,-0.01000139,3.685594,-0.0368611,0.2227205,0.1091618,0.8453962,0.4265608,,2.44998e-06,,,
11516,	09/25/2022 22:44:42.948,285509.16,42590,5,25,-0.01000131,3.665369,-0.0366585,0.2227205,0.1182998,0.8453962,0.4601448,,,,,
11845,	09/25/2022 23:39:32.948,288799,45880,5,25,-0.01000141,3.648452,-0.0364897,0.2227205,0.1274378,0.8453962,0.4935601,,2.96366e-06,,,
12174,	09/26/2022 00:34:22.948,292089.16,49170,5,25,-0.0100013,3.633333,-0.0363381,0.2227205,0.1365765,0.8453962,0.5268318,,-1.64767e-05,,,
12503,	09/26/2022 01:29:12.948,295379,52460,5,25,-0.01000128,3.618826,-0.0361929,0.2227205,0.1457153,0.8453962,0.5599688,,-3.43742e-06,,,
12832,	09/26/2022 02:24:02.948,298669,55750,5,25,-0.01000124,3.603501,-0.0360395,0.2227205,0.1548534,0.8453962,0.5929691,,-2.50511e-05,,,
13161,	09/26/2022 03:18:52.948,301959,59040,5,25,-0.01000132,3.584524,-0.03585,0.2227205,0.1639913,0.8453962,0.6258152,,8.69225e-06,,,
13490,	09/26/2022 04:13:42.948,305249,62330,5,25,-0.01000134,3.561825,-0.035623,0.2227205,0.1731293,0.8453962,0.6584676,,-2.29583e-05,,,
13819,	09/26/2022 05:08:32.948,308539,65620,5,25,-0.01000132,3.537059,-0.0353753,0.2227205,0.1822671,0.8453962,0.6909016,,5.88771e-06,,0,
14148,	09/26/2022 06:03:22.948,311829.16,68910,5,25,-0.0100013,3.510881,-0.0351134,0.2227205,0.191405,0.8453962,0.7231065,,,,,
14477,	09/26/2022 06:58:12.949,315119,72200.001,5,25,-0.01000123,3.480627,-0.0348106,0.2227205,0.2005429,0.8453962,0.7550527,,-2.10207e-05,,0,
14806,	09/26/2022 07:53:02.949,318409,75490.001,5,25,-0.01000125,3.442427,-0.0344286,0.2227205,0.2096807,0.8453962,0.7866879,,-1.94787e-05,,,
15135,	09/26/2022 08:47:52.948,321699,78780,5,25,-0.01000114,3.387628,-0.0338801,0.2227205,0.2188186,0.8453962,0.8179359,,-8.77171e-06,,,
15464,	09/26/2022 09:42:42.949,324989,82070.001,5,25,-0.01000137,3.18118,-0.0318162,0.2227205,0.2279565,0.8453962,0.8481198,,-8.8811e-05,,,
15793,	09/26/2022 10:43:59.752,328665.964,1770,5,27,0.009999465,3.284127,0.0328395,0.2276357,0.2315859,0.8611047,0.859372,,6.40541e-05,,,
16122,	09/26/2022 11:38:49.753,331955.965,5060,5,27,0.009999443,3.451917,0.0345172,0.2367719,0.2315859,0.8919966,0.859372,,1.67148e-05,,,
16451,	09/26/2022 12:33:39.753,335246,8350.001,5,27,0.009999495,3.4881,0.0348792,0.2459081,0.2315859,0.9237145,0.859372,,6.7572e-06,,,
16780,	09/26/2022 13:28:29.753,338536,11640.001,5,27,0.009999499,3.519794,0.0351962,0.2550442,0.2315859,0.9557272,0.859372,,,,,
17109,	09/26/2022 14:23:19.752,341826,14930,5,27,0.009999383,3.551391,0.0355117,0.2641804,0.2315859,0.9880268,0.859372,,3.51638e-06,,,
17438,	09/26/2022 15:18:09.752,345116,18220,5,27,0.00999942,3.580431,0.0358022,0.2733166,0.2315859,1.020607,0.859372,,3.42969e-05,,0,
17767,	09/26/2022 16:12:59.753,348406,21510.001,5,27,0.009999398,3.604866,0.0360465,0.2824529,0.2315859,1.053438,0.859372,,1.30391e-05,,,
18096,	09/26/2022 17:07:49.753,351695.965,24800,5,27,0.009999398,3.623285,0.0362307,0.2915891,0.2315859,1.086461,0.859372,,-3.95132e-08,,0,
18425,	09/26/2022 18:02:39.753,354985.965,28090,5,27,0.009999376,3.637226,0.03637,0.3007254,0.2315859,1.119629,0.859372,,1.03518e-05,,,
18754,	09/26/2022 18:57:29.753,358276,31380,5,27,0.009999353,3.650334,0.036501,0.3098616,0.2315859,1.152918,0.859372,,-7.94189e-06,,0,
19083,	09/26/2022 19:52:19.753,361566,34670.001,5,27,0.009999339,3.663835,0.0366359,0.3189979,0.2315859,1.186329,0.859372,,-1.20522e-05,,,
19412,	09/26/2022 20:47:09.752,364856,37960,5,27,0.009999409,3.678634,0.0367842,0.3281342,0.2315859,1.219868,0.859372,,,,,0
19741,	09/26/2022 21:41:59.753,368145.965,41250,5,27,0.009999342,3.695689,0.0369545,0.3372706,0.2315859,1.253553,0.859372,,-7.23079e-06,,,
20070,	09/26/2022 22:36:49.752,371436,44540,5,27,0.009999383,3.716318,0.0371609,0.3464068,0.2315859,1.287408,0.859372,,-3.75369e-06,,,
20399,	09/26/2022 23:31:39.752,374726,47830,5,27,0.009999342,3.742628,0.0374238,0.3555431,0.2315859,1.321476,0.859372,,-7.30988e-06,,,
20728,	09/27/2022 00:26:29.752,378016,51120,5,27,0.009999286,3.776269,0.03776,0.3646794,0.2315859,1.355819,0.859372,,3.48913e-05,,,
21057,	09/27/2022 01:21:19.753,381306,54410.001,5,27,0.009999417,3.810952,0.0381073,0.3738157,0.2315859,1.390479,0.859372,,1.78992e-05,,,
21386,	09/27/2022 02:16:09.752,384596,57700,5,27,0.009999387,3.84621,0.0384597,0.382952,0.2315859,1.425456,0.859372,,2.92793e-05,,,0
21715,	09/27/2022 03:10:59.753,387886,60990,5,27,0.009999353,3.884278,0.0388403,0.3920884,0.2315859,1.460768,0.859372,,-4.1093e-06,,,
22044,	09/27/2022 04:05:49.753,391176,64280.001,5,27,0.009999245,3.924274,0.0392398,0.4012246,0.2315859,1.496436,0.859372,,,,,
22373,	09/27/2022 05:00:39.753,394466,67570.001,5,27,0.009999376,3.965863,0.0396562,0.4103609,0.2315859,1.532477,0.859372,,1.55277e-05,,0,
22702,	09/27/2022 05:55:29.753,397755.965,70860,5,27,0.009999376,4.008517,0.0400827,0.4194973,0.2315859,1.568905,0.859372,,1.39884e-05,,,0
23031,	09/27/2022 06:50:19.753,401045.965,74150,5,27,0.009999257,4.052782,0.0405248,0.4286335,0.2315859,1.605729,0.859372,,2.592e-05,,,
23360,	09/27/2022 07:45:09.752,404336,77440,5,27,0.009999305,4.098589,0.040983,0.4377698,0.2315859,1.642964,0.859372,,3.31115e-05,,,
23689,	09/27/2022 08:39:59.752,407625.964,80730,5,27,0.009999357,4.145593,0.0414533,0.4469061,0.2315859,1.680624,0.859372,,1.43026e-05,,,
24018,	09/27/2022 09:34:49.753,410916,84020.001,5,27,0.009999301,4.194684,0.0419439,0.4560424,0.2315859,1.718723,0.859372,,3.16082e-07,,0,
24326,	09/27/2022 11:55:42.960,419369,3600,6,31,0,3.422359,0,0,0.2175166,0,0.797515,,-1.07869e-05,0.246016,0,0